File: surf_analysis/Henke_Model/sorce_xps_sensitivity.dat
;
;	Model of SORCE XPS Sensitivity based May 2003 Rocket XPS calibration
;
;	Updated with revisions to match TIMED XPS results in sxps_scale_model.pro
;		Tom Woods   5/7/04
;
;	All diode models used 5 micron Si thickness and 7 nm SiO2 outer layer.
;
;	XP#	Coating		Thickness (nm)           Scale Factor      5/7/04 Revisions
;	----	----------	--------------           -------------     -----------------
;	1	Ti/C		387.5/50.0               1.028			/ 1.44
;	2	Ti/C		387.5/50.0               1.024			/ 1.44
;	3	Al/Sc/C		179.1/50.0/25.0          1.16/1.30		/ 1.40 below 10 nm only
;	5	Al/Nb/C		208.9/39.2/47.3          0.368			None - not studied
;	6	Ti/Mo/Au	45.2/111.3/74.1          0.801/1.65		/ 1.44
;	7	Ti/Mo/Si/C	34.0/131.3/103.5/46.1    0.5476			/ 1.8 then / 1.2 above 10 nm
;	9	Al/Cr		175.0/111.4              2.10			None - questionable data
;	10	Al/Mn		175.0/144.7              None			None - not useful data
;
;	REFERENCE:  Tom Woods, private communication, 2004
;
;	IDL USAGE:  data = read_dat( 'sorce_xps_sensitivity.dat' )
;
;		    plot_io, data[0,*], data[1,*], title='XP#1 (Ti/C)', xtitle='Wavelength (nm)', $
;			ytitle='Sensitivity (electrons/photon)'
;
;	CREATION:   Jan. 8, 2004 by Tom Woods, V4 SORCE_XPS
;
FORMAT = (9E16.8)
 301 lines : SORCE XPS Sensitivity Model based on May 2003 Rocket XPS Calibration
 9 columns : Wavelength_nm, XP#1 (e-/ph), XP#2, XP#3, XP#5, XP#6, XP#7, XP#9, XP#10
     0.0413       1.79514       1.78819       1.26357      0.9254       1.06944      0.762778       5.283       2.515
     0.0424       1.94861       1.94097       1.37143       1.004       1.16042      0.827778       5.733       2.729
     0.0436       2.11389       2.10556       1.48857       1.089       1.25833      0.897778       6.22       2.961
     0.0448       2.29306       2.28403       1.61429       1.182       1.36389      0.973333       6.748       3.212
     0.046       2.4875       2.47778       1.75143       1.282       1.47847       1.05556       7.319       3.484
     0.0472       2.69722       2.68681       1.89929       1.39       1.60278       1.14444       7.938       3.779
     0.0485       2.925       2.91319       2.06       1.508       1.73681       1.24056       8.608       4.098
     0.0498       3.17083       3.15903       2.23357       1.634       1.88125       1.345       9.333       4.442
     0.0512       3.4375       3.42431       2.42143       1.772       2.03819       1.45722       10.12       4.816
     0.0525       3.72569       3.71111       2.625       1.92       2.20694       1.57889       10.97       5.22
     0.054       4.0375       4.02222       2.84429       2.081       2.39028       1.71056       11.88       5.657
     0.0554       4.375       4.35764       3.08286       2.255       2.5875       1.85222       12.88       6.129
     0.0569       4.73958       4.72153       3.34       2.443       2.8       2.00611       13.95       6.64
     0.0585       5.13403       5.11389       3.61857       2.646       3.03056       2.17167       15.11       7.193
     0.06       5.56042       5.53889       3.91929       2.866       3.27847       2.35111       16.37       7.79
     0.0617       6.02083       5.99722       4.245       3.103       3.56111       2.55722       17.73       8.436
     0.0633       6.51875       6.49306       4.59714       3.36       3.86597       2.78       19.19       9.133
     0.065       7.05556       7.02778       4.97429       3.637       4.18125       3.00889       20.78       9.886
     0.0668       7.63194       7.60417       5.385       3.946       4.52083       3.25611       22.48       10.7
     0.0686       8.25694       8.22917       5.82714       4.269       4.88611       3.52278       24.32       11.57
     0.0705       8.93056       8.89583       6.30286       4.618       5.27986       3.81056       26.31       12.52
     0.0724       9.65972       9.61806       6.81786       4.995       5.70486       4.12       28.45       13.53
     0.0743       10.4375       10.3958       7.37143       5.4       6.15903       4.45389       30.76       14.63
     0.0763       11.2847       11.2361       7.97143       5.838       6.65069       4.81389       33.24       15.81
     0.0784       12.1875       12.1389       8.60714       6.309       7.17361       5.20167       35.92       17.08
     0.0805       13.1667       13.1111       9.30714       6.817       7.74306       5.61667       38.8       18.45
     0.0827       14.2153       14.1597       10.05       7.363       8.34722       6.06667       41.91       19.92
     0.0849       15.3472       15.2847       10.8571       7.952       8.99306       6.55       45.24       21.51
     0.0872       16.5625       16.4931       11.7214       8.586       9.72917       7.07222       48.84       23.21
     0.0896       17.8681       17.7986       12.65       9.267       10.4792       7.63333       52.7       25.04
     0.092       19.2708       19.1944       13.6571       10       11.375       8.23333       56.86       27.02
     0.0945       20.7778       20.7014       14.7286       10.79       12.25       8.87778       61.32       29.13
     0.0971       22.4028       22.3125       15.8857       11.64       13.1875       9.57222       66.12       31.41
     0.0997       24.1389       24.0417       17.1357       12.55       14.1875       10.3167       71.27       33.85
      0.1024       26       25.9028       18.4643       13.53       15.2639       11.1167       76.8       36.46
      0.1052       28       27.8958       19.9071       14.58       16.6597       11.9778       82.74       39.27
      0.108       30.1458       30.0278       21.4429       15.7       17.9514       12.9       89.1       42.29
      0.1109       32.4444       32.3125       23.1       16.91       19.3125       13.8833       95.92       45.51
      0.1139       34.9028       34.7639       24.8714       18.21       20.7708       14.9389       103.2       48.97
      0.117       37.5278       37.3819       26.7714       19.6       22.3194       16.0722       111.1       52.66
      0.1202       40.3403       40.1806       28.8071       21.09       23.9792       17.2833       119.4       56.61
      0.1234       43.125       42.9583       30.8429       22.57       25.625       18.4889       127.8       60.55
      0.1268       46.0417       45.8681       32.9786       24.14       27.3472       19.75       136.6       64.68
      0.1302       49.4306       49.2361       35.4571       25.94       29.3403       21.2111       146.7       69.45
      0.1337       53.0278       52.8264       38.0929       27.87       31.4583       22.7722       157.5       74.53
      0.1373       56.8681       56.6458       40.9143       29.93       33.7153       24.4333       169       79.95
      0.141       60.9514       60.7153       43.9429       32.13       36.1111       26.2056       181.3       85.72
      0.1449       65.2917       65.0417       47.1429       34.48       38.6528       28.0889       194.4       91.85
      0.1488       69.9306       69.6528       50.5643       36.98       41.3472       30.0944       208.3       98.37
      0.1528       74.7917       74.5139       54.2       39.64       44.1944       32.2222       223       105.3
      0.1569       79.9306       79.6528       58.0929       42.47       47.2083       34.4778       238.7       112.6
      0.1612       85.4167       85.0694       62.2071       45.48       50.3889       36.8722       255.4       120.4
      0.1655       91.1806       90.8333       66.6214       48.68       53.7361       39.4       273       128.6
      0.17       97.2917       96.9444       71.2571       52.06       57.2639       42.0778       291.6       137.3
      0.1746       103.75       103.333       76.2143       55.65       60.9514       44.9       311.3       146.5
      0.1793       110.486       110.069       81.3571       59.44       64.8472       47.8722       332.1       156.1
      0.1842       117.569       117.153       86.9286       63.45       68.9097       51       354       166.3
      0.1892       125       124.514       92.7143       67.68       73.125       54.2889       377       177
      0.1943       132.778       132.222       98.8571       72.14       77.5694       57.7222       401.2       196.7
      0.1995       140.833       140.278       105.357       76.82       82.0833       61.3333       426.5       209.5
      0.2049       149.306       148.681       112.143       81.73       86.875       65.1111       453       223
      0.2105       158.056       157.431       119.214       86.88       91.7361       69       499.3       237.1
      0.2162       167.083       166.389       126.643       92.26       96.7361       73.0556       530.5       251.9
      0.222       176.389       175.694       134.429       97.88       101.944       77.2778       563.1       267.3
      0.228       186.042       185.278       142.571       103.7       107.153       81.6111       597.1       283.4
      0.2342       195.833       195.069       150.929       109.8       112.5       86.0556       632.4       300.1
      0.2405       205.903       205.139       159.714       116.1       117.917       90.6111       669       317.4
      0.247       216.181       215.278       168.714       122.5       123.264       95.2778       706.9       335.3
      0.2537       254.236       253.264       178       129.2       130.417       101.056       745.9       353.7
      0.2606       267.986       266.944       187.571       136       135.972       106       786       372.6
      0.2676       282.014       280.903       197.357       143       141.458       110.944       827.1       391.9
      0.2749       296.389       295.208       207.286       150.1       146.875       115.889       868.9       411.6
      0.2823       310.972       309.722       220.071       157.3       152.014       120.833       911.4       431.5
      0.2899       325.694       324.444       230.571       164.5       157.014       125.722       954.2       451.6
      0.2978       340.486       339.167       241.143       171.7       161.736       130.556       997.3       471.8
      0.3058       355.347       353.958       251.786       178.9       166.111       135.222       1040       491.9
      0.3141       370.069       368.611       262.357       186       170.069       139.667       1083       511.8
      0.3226       384.583       383.056       272.786       192.9       173.611       143.944       1125       531.3
      0.3313       398.75       397.222       283       199.6       176.667       147.889       1166       550.3
      0.3403       412.5       410.903       293       206.1       179.028       151.5       1206       568.6
      0.3495       425.694       424.028       302.571       212.2       180.903       154.778       1243       586.1
      0.3589       438.194       436.458       311.714       217.9       182.083       157.556       1279       602.4
      0.3686       449.792       448.056       320.143       223.1       184.236       159.889       1312       617.5
      0.3786       460.417       458.611       328.071       227.8       183.889       161.667       1342       631.1
      0.3889       469.931       468.056       335.071       231.8       182.639       162.833       1369       643
      0.3994       478.056       476.181       341.286       235.1       183.75       163.444       1392       653
      0.4102       484.792       482.917       346.429       237.7       181.042       163.333       1410       660.9
      0.4213       490       488.056       350.5       239.4       177.361       162.556       1424       666.5
      0.4327       493.403       491.528       353.429       240.3       178.194       167       1432       669.7
      0.4444       495.069       493.125       355.071       240.2       172.986       165.056       1436       670.3
      0.4564       494.792       492.847       355.429       239.1       175.833       162.389       1433       668.2
      0.4687       492.569       490.625       354.357       239.7       169.167       158.944       1425       663.3
      0.4814       488.264       486.389       351.857       236.7       174.931       169.722       1411       655.6
      0.4944       481.875       480       347.929       232.7       196.389       200.167       1391       645
      0.5078       473.472       471.597       342.5       233.6       188.194       196.389       1364       631.6
      0.5215       462.986       461.181       335.643       227.8       179.236       191.778       1332       615.4
      0.5356       450.556       448.75       327.429       234       169.583       186.333       1294       596.6
      0.5501       436.111       434.444       317.786       226.7       188.472       180.111       1251       575.2
      0.565       419.861       418.264       306.857       218.5       226.667       173.111       1202       551.4
      0.5803       401.944       400.417       294.643       209.4       215.764       165.444       1149       525.5
      0.596       382.5       380.972       281.286       199.5       204.097       157.167       1091       497.6
      0.6121       361.528       360.139       266.857       188.8       191.806       148.333       1029       468
      0.6287       339.306       337.986       251.5       177.6       178.958       139       964.2       437.1
      0.6457       316.042       314.792       235.286       165.7       165.625       129.278       896.2       404.8
      0.6631       291.875       290.764       218.357       153.4       151.944       119.222       825.9       371.8
      0.6811       82.0833       81.7361       61.7286       43.22       42.4167       36.1111       231.7       103.9
      0.6995       78.8194       78.4722       59.6071       41.61       40.4375       34.7889       222       99.1
      0.7184       80.9028       80.625       61.5571       42.85       41.2083       35.8389       227.3       101.1
      0.7378       82.8472       82.5694       63.5071       44.04       41.8889       36.85       232.4       102.8
      0.7578       84.5833       84.3056       65.3214       45.13       42.4306       37.7778       236.7       104.2
      0.7783       86.1111       85.7639       67.0143       46.12       42.8264       38.6167       240.3       105.3
      0.7993       87.2917       86.9444       82.5714       58.42       43.0556       39.3444       291.8       127.1
      0.8209       88.125       87.7778       85.2143       60.12       43.1042       39.9444       297.3       128.8
      0.8432       88.6111       88.2639       87.6429       61.64       42.9306       40.3778       301.8       129.9
      0.866       88.6111       88.2639       89.7857       63       42.5625       40.65       305.1       130.5
      0.8894       88.2639       87.9167       91.7857       64.21       42       40.7611       307.3       130.5
      0.9134       87.5       87.1528       93.4286       65.21       41.2292       40.6889       308.3       129.9
      0.9382       86.25       85.9722       94.9286       66.01       40.25       40.4444       308       128.7
      0.9635       84.5833       84.3056       96.0714       66.58       39.0764       40       306.2       126.9
      0.9896       82.5       82.2222       96.8571       66.9       37.7083       39.3667       303       124.5
       1.0163       80       79.7222       97.2857       66.95       36.1875       38.5556       298.4       121.4
       1.0439       77.0833       76.8056       97.2857       66.71       34.4931       37.55       292.3       117.7
       1.072       73.8194       73.4722       96.9286       66.18       32.6458       36.3556       284.7       113.5
       1.1011       70.1389       69.8611       96.1429       65.34       30.6389       34.9722       275.7       108.6
       1.1308       66.0972       65.8403       94.8571       64.18       28.5347       33.4167       265.2       103.2
       1.1614       61.7917       61.5486       93.1429       62.69       26.3403       31.7       253.2       97.32
       1.1928       57.2569       57.0347       90.9286       60.88       24.125       29.8389       240.1       91.02
       1.2251       53.6181       53.4097       89.9286       59.89       22.4097       28.4278       230.4       86.09
       1.2582       49.9375       49.7431       88.7857       58.81       20.8056       27.1222       219.7       81.11
       1.2923       46.5347       46.3542       88.0714       58       19.3333       25.9056       209.9       76.55
       1.3272       43.0208       42.8542       87.0714       56.94       17.7847       24.4444       199.7       71.74
       1.3631       39.4514       39.2986       85.6429       55.57       16.2222       22.8333       188.8       66.77
       1.4       35.875       35.7361       83.7857       53.93       14.7708       21.3278       176.7       61.71
       1.4379       32.3403       32.2153       81.7143       52.08       13.2778       19.6556       163.8       56.59
       1.4768       28.8819       28.7708       79.3571       50.11       11.8264       17.9333       150.6       51.31
       1.5167       25.5556       25.4583       76.7143       48.12       10.4514       16.2389       138.9       45.98
       1.5577       22.3819       22.2986       73.7857       45.98       9.20139       14.6889       127.7       40.85
       1.5999       19.4028       19.3264       70.7357       43.74       8.05556       13.2222       116.6       36.13
       1.6431       16.6597       16.5972       67.4857       41.4       7.04861       11.9       105.7       37.89
       1.6876       14.1389       14.0833       64.0714       38.99       6.15903       10.6222       95.13       33.01
       1.7332       12.0069       11.9653       61.3       37.03       5.40069       9.52778       86       28.95
       1.7801       10.2292       10.1944       58.7857       35.24       4.73472       8.53889       77.61       25.47
       1.8283       8.6875       8.65278       56.2357       33.41       4.12292       7.60556       82.61       22.26
       1.8777       7.19444       7.16667       53.4643       31.51       3.56181       6.72222       74.77       19.25
       1.9285       5.86458       5.84167       50.5643       29.58       3.07778       5.88889       67.23       16.5
       1.9806       4.74861       4.72986       47.75       27.67       2.62569       5.07667       58.94       97.74
       2.0342       3.81181       3.79653       44.9357       25.79       2.21042       4.31222       50.18       92.24
       2.0892       3.01806       3.00625       42.0857       23.92       1.84375       3.62667       42.2       86.71
       2.1457       2.35556       2.34653       39.2571       22.08       1.525       3.02167       35.02       81.18
       2.2038       3.06458       3.05278       36.4857       20.31       1.32986       2.61222       174.3       75.74
       2.2634       2.43611       2.42708       34.2       18.82       1.10278       2.17944       164.7       71.29
       2.3246       1.94444       1.93681       32.5143       17.75      0.95       1.89556       158       68.07
       2.3875       1.50417       1.49861       30.25       16.44      0.803472       1.61944       148.6       63.67
       2.452       1.14722       1.14236       28       15.16      0.68375       1.38778       139.4       59.32
       2.5183      0.860417      0.856944       27.05       13.92      0.590278       1.20389       130.3       55.05
       2.5865      0.634306      0.631875       24.9429       12.73      0.506597       1.03667       121.4       50.85
       2.6564      0.459583      0.457778       22.8857       11.58      0.428819      0.877778       112.6       46.65
       2.7283       37.5486       37.4028       20.9714       10.53      0.631389       1.12       104.4       42.74
       2.8021       35.1389       35       19.2643       9.63      0.553403      0.965       97.02       39.19
       2.8779       32.7639       32.6319       17.6429       8.775      0.48875      0.838333       89.9       35.79
       2.9557       30.4236       30.3056       16.1       7.97      0.435625      0.735556       83.07       32.56
       3.0357       28.1389       28.0278       14.6071       7.202      0.3875      0.642778       76.23       29.56
       3.1177       25.9097       25.8056       21.6571       6.484      0.354722      0.58       69.51       26.71
       3.202       23.7708       23.6736       19.95       5.849      0.327083      0.527333       63.04       23.99
       3.2887       21.7083       21.6181       18.4429       5.296      0.31125      0.492278       57.3       21.6
       3.3777       19.7083       19.6319       16.9929       4.776      0.296389      0.458111       51.73       19.33
       3.469       17.7986       17.7292       15.5571       4.277      0.281736      0.4245       46.35       17.17
       3.5628       16.1042       16.0417       14.1071       3.787      0.2675      0.391722       41.09       15.08
       3.6592       14.5625       14.5069       12.7071       3.305      0.254236      0.361056       36.27       13.14
       3.7581       13.1597       13.1042       11.4214       2.848      0.25125      0.346833       31.99       11.4
       3.8598       11.8611       11.8125       10.2286       2.48      0.245      0.324833       28.09       9.833
       3.9642       10.6319       10.5903       9.09286       2.158      0.238056      0.301778       24.46       8.408
       4.0714       9.47222       9.4375       8.02857       1.862      0.243056      0.293167       21.14       7.12
       4.1815       8.39583       8.36806       7.02571       1.601      0.244583      0.278278       18.11       5.967
       4.2947       7.4375       7.40972       6.13       1.371      0.243889      0.260333       15.44       4.984
       4.4108       10.7778       10.7361       6.80929       1.867      0.258125      0.407556       13.09       4.135
       4.5301       9.72222       9.68056       5.93071       1.629      0.278542      0.420667       11.03       3.391
       4.6527       8.72222       8.6875       5.15143       1.415      0.311597      0.452       9.245       2.763
       4.7784       7.85417       7.81944       4.55857       1.265      0.387917      0.548778       7.887       2.287
       4.9078       7.11111       7.08333       4.03786       1.137      0.529028      0.738889       6.723       1.888
       5.0405       6.40833       6.38333       3.54357       1.05      0.740972       1.02333       5.673       1.538
       5.1768       5.70556       5.68333       3.06429      0.9658       1.02778       1.38611       4.708       1.24
       5.3167       5.01319       4.99375       2.63      0.8834       1.15833       1.455       3.873       1.013
       5.4605       4.35833       4.34097       2.24857      0.8143       1.30139       1.51722       3.167      0.8234
       5.6082       3.76042       3.74583       1.88714      0.7383       1.36458       1.44       2.538      0.6561
       5.7599       3.24236       3.22986       1.54857      0.6379       1.38056       1.3       1.99      0.5106
       5.9157       2.84167       2.83056       1.27357      0.5371       1.40139       1.17       1.571      0.3976
       6.0758       2.48819       2.47847       1.04143      0.4388       1.41875       1.03611       1.231      0.3071
       6.24       2.17639       2.16806      0.842143      0.3527       1.42014      0.899444      0.9521      0.2343
       6.409       1.89653       1.88889      0.658429      0.2721       1.39653      0.758889      0.7112      0.1727
       6.5822       1.62778       1.62153      0.500429      0.2023       1.39028      0.626667      0.5146      0.1236
       6.7603       1.38611       1.38056      0.373571      0.1472       1.38056      0.512389      0.3601     0.08674
       6.9432       1.16458       1.16042      0.280286      0.1073       1.38264      0.429833      0.2523     0.06098
       7.1309      0.967361      0.963194      0.225143     0.0846       1.38056      0.365778      0.1881     0.04579
       7.3238      0.799306      0.796528      0.182643     0.0675       1.37292      0.318167      0.1412     0.03474
       7.522      0.687083      0.684375      0.153929     0.05594       1.41806      0.306889      0.1111     0.02734
       7.7254      0.590208      0.587917      0.129     0.04609       1.42361      0.298944     0.08815     0.02135
       7.9341      0.523125      0.521042      0.108857     0.03822       1.4375      0.294667     0.07028     0.01676
       8.149      0.466944      0.465139     0.0919286     0.03171       1.43403      0.292222     0.056     0.01314
       8.369      0.414028      0.412431     0.0787857     0.02674       1.41806      0.265944     0.04508     0.01054
       8.5959      0.364653      0.363264     0.0679214     0.02272       1.34792      0.237889     0.03624    0.008702
       8.8279      0.320139      0.318889     0.0584     0.01923       1.26528      0.211444     0.02895    0.007163
       9.0668      0.280278      0.279167     0.0497429     0.01612       1.17361      0.199056     0.02286    0.00584
       9.312      0.241042      0.240139     0.0414786     0.01323       1.06458      0.190056     0.01763    0.004661
       9.5641      0.207639      0.206806     0.0346071     0.01087      0.966667      0.196833     0.01371    0.003726
       9.8225      0.180556      0.179861     0.0291714    0.009017      0.869444      0.2085     0.01078    0.003038
       10.0887      0.151944      0.151389     0.03805    0.00841      0.753472      0.195787    0.009328    0.002733
       10.3611      0.123403      0.122917     0.0391    0.008791      0.639444      0.237778    0.008913    0.002706
       10.6412     0.0992361     0.0988194     0.04005    0.009159      0.520347      0.286019    0.008693    0.002671
       10.9292     0.0790278     0.0786806     0.04091    0.00952      0.414722      0.335417    0.008486    0.002626
       11.2251     0.0626389     0.0623889     0.04158    0.009845      0.335903      0.359769    0.008236    0.002566
       11.5289     0.0513125     0.0511111     0.04211     0.01014      0.276806      0.379074    0.007925    0.002493
       11.8405     0.0428056     0.0426389     0.04339     0.01062      0.226736      0.395463    0.00759    0.002464
       12.1611     0.0357014     0.0355625     0.04562     0.01138      0.177014      0.402037    0.007373    0.002484
       12.4894     0.0296111     0.0295     0.04847     0.01229      0.130417      0.403472    0.007213    0.002527
       12.8272     0.025125     0.0250278     0.05252     0.01343     0.0945833      0.969444    0.007052    0.002598
       13.1741     0.0217847     0.0217014     0.05495     0.01408     0.0648472      0.85    0.006482    0.002423
       13.5304     0.0190903     0.0190139     0.05721     0.01464     0.0445208      0.739815    0.005912    0.002196
       13.8964     0.0166042     0.0165347     0.05956     0.01508     0.0305972      0.606019    0.005329    0.001966
       14.2722     0.0143681     0.0143125     0.06297     0.01575     0.0202708      0.481944    0.004863    0.001777
       14.6583     0.0122847     0.0122431     0.07679     0.01915     0.0129236      0.372037    0.005071    0.001836
       15.0548    0.00967361    0.00963889     0.09521     0.02365    0.00784722      0.273843    0.005348    0.001917
       15.462    0.00752778    0.0075      0.1154     0.02833    0.0046375      0.193287    0.005349    0.001901
       15.8802    0.00580556    0.00578264      0.1396     0.03337    0.00264653      0.132454    0.005169    0.00183
       16.3097    0.00411806    0.00410139      0.1677     0.03837    0.00140694     0.0865741    0.004903    0.001729
       16.7509    0.00279514    0.00278403      0.1968     0.04251   0.000674167     0.0530093    0.004417    0.001583
       17.204    0.00161667    0.00161042       3.598       1.144   0.000291806     0.0296944     0.05458     0.01894
       17.6691   0.000841667   0.000838194       3.35      0.9457   0.000115833     0.0153843     0.03583     0.01182
       18.1471   0.000420139   0.000418542       3.121      0.7763   4.34722e-05    0.00738426     0.02236    0.007243
       18.6379   0.000135764   0.000135208       2.871      0.6209   1.40833e-05    0.00308843     0.01324    0.004254
       19.1421   3.02361e-05   3.01181e-05       2.613      0.4827   4.40069e-06    0.00124769    0.007886    0.002325
       19.6597   5.53889e-06   5.51736e-06       2.372      0.3655   1.46111e-06   0.000486574    0.004846    0.001217
       20.1915   6.92014e-07   6.89306e-07       2.111      0.2712   5.22986e-07   0.000168519    0.002916   0.0006121
       20.7377   5.61944e-08   5.59722e-08       1.858      0.2012   1.64792e-07   5.14815e-05    0.001845   0.0002896
       21.2985   3.72708e-09   3.7125e-09       1.492      0.1463   5.2e-08   1.39722e-05    0.0013   0.0001149
       21.8746   2.10486e-10   2.09653e-10       1.238      0.1016   1.53472e-08   3.27269e-06   0.0009297   4.081e-05
       22.4661   8.05556e-12   8.02083e-12      0.9806     0.06725   3.83125e-09   6.41667e-07   0.0008912   1.322e-05
       23.0741   2.34931e-13   2.34028e-13      0.7352     0.043   1.06528e-09   1.46111e-07   0.0008666   4.286e-06
       23.6982   4.64444e-15   4.62639e-15      0.5171     0.02637   2.49375e-10   2.99213e-08   0.0009341   2.822e-06
       24.3389   6.32708e-17   6.30208e-17      0.3255     0.01567   5.09167e-11   5.30093e-09    0.001219   6.715e-06
       24.9975   4.70139e-18   4.68333e-18      0.1979    0.008975   1.1375e-11   9.6713e-10    0.001588   0.0003785
       25.6736   6.72639e-19   6.7e-19      0.1103    0.005933   3.14722e-12   2.39444e-10    0.002852     0.06817
       26.3676   1.59097e-19   1.58472e-19     0.05628    0.003943   1.11806e-12   7.76852e-11    0.005207     0.06531
       27.0807   9.88194e-20   9.84028e-20     0.02969    0.002714   6.03125e-13   3.93565e-11     0.01748     0.06273
       27.8134   1.19097e-19   1.18681e-19     0.01402    0.002089   4.71389e-13   2.98472e-11     0.06242     0.05985
       28.5658   3.24167e-19   3.22917e-19    0.004898    0.001579   6.72014e-13   4.35926e-11      0.1626     0.05338
       29.3385   2.96528e-18   2.95417e-18    0.002623    0.001188   1.61181e-12   1.05417e-10      0.2396     0.04006
       30.1315   4.05278e-17   4.03681e-17    0.001356   0.0008924   4.07083e-12   2.57037e-10      0.2864     0.02962
       30.9469   4.93681e-16   4.91736e-16   0.0006927   0.0006727   2.41111e-11   1.71111e-09      0.3029     0.02135
       31.7839   5.56319e-15   5.54167e-15   0.0005212   0.0006086   1.58542e-10   1.29167e-08      0.2852     0.01505
       32.6434   5.18958e-14   5.16944e-14   0.0004385   0.0007833   8.29861e-10   7.53704e-08      0.249     0.0104
       33.5262   3.27639e-13   3.26389e-13   0.0005118    0.001319   3.40972e-09   3.39398e-07      0.2008    0.007189
       34.4332   1.57361e-12   1.56736e-12   0.0006709    0.002226   8.8125e-09   1.23981e-06      0.1474    0.005112
       35.3644   5.98611e-12   5.9625e-12     0.06364    0.003582   1.47639e-08   3.32037e-06      0.1067    0.003613
       36.3208   1.40694e-11   1.40139e-11      0.4261    0.004968   1.39375e-08   6.98611e-06     0.07644    0.002536
       37.3033   3.11736e-11   3.10486e-11      0.4141    0.006168   9.77083e-09   1.02361e-05     0.05354    0.001727
       38.312   2.72083e-11   2.71042e-11      0.3799    0.007237   6.3625e-09   1.15463e-05     0.0366    0.001144
       39.3481   2.21528e-11   2.20694e-11      0.3395    0.008052   4.81389e-09   1.15972e-05     0.02409   0.0007411
       40.4127   1.06597e-11   1.06181e-11      0.299    0.008092   4.88819e-09   7.71296e-06     0.01522   0.0004688
       41.506   2.78194e-12   2.77153e-12      0.2589    0.007415   5.63056e-09   4.69444e-06    0.009281   0.0002893
       42.6292   6.92361e-13   6.89653e-13      0.2218    0.006289   3.89236e-09   1.8213e-06    0.005414   0.0001736
       43.7809   1.66597e-13   1.65972e-13      0.1888    0.005058   1.59861e-09   4.39861e-07    0.002973   0.0001018
       44.9655   3.75833e-14   3.74375e-14      0.1598    0.003824   5.20486e-10   8.9537e-08    0.001552   5.808e-05
       46.1816   1.28889e-14   1.28403e-14      0.1353    0.002841   1.43056e-10   1.57778e-08   0.0007763   3.254e-05
       47.4308   6.57014e-15   6.54444e-15      0.1128    0.00204   2.92361e-11   2.31713e-09   0.0003953   1.756e-05
       48.7131   3.33542e-15   3.32292e-15     0.09339    0.001409   6.10069e-12   4.02778e-10   0.0002221   9.666e-06
       50.0323   2.70069e-15   2.68958e-15     0.07685   0.0009549   1.36875e-12   1.08241e-10   0.0001206   5.68e-06
       51.3844   3.15278e-15   3.14028e-15     0.06285   0.0006223   2.32917e-13   2.71574e-11   6.327e-05   3.268e-06
       52.7734   3.57153e-15   3.55764e-15     0.0505   0.0003844   4.50347e-14   7.26852e-12   3.266e-05   1.826e-06
       54.2016   4.16944e-15   4.15278e-15     0.03991   0.0002323   1.27153e-14   2.5287e-12   1.972e-05   9.898e-07
       55.6668   9.66667e-15   9.625e-15     0.03216   0.0001443   5.22292e-15   9.4213e-13   1.231e-05   5.644e-07
       57.1738   2.68125e-14   2.67083e-14     0.02576   8.582e-05   3.26042e-15   3.41944e-13   7.584e-06   3.842e-07
       58.7202   6.97917e-14   6.95139e-14     0.02064   4.983e-05   2.88472e-15   1.39583e-13   5.155e-06   2.619e-07
       60.3084   1.61458e-13   1.60833e-13     0.01682   2.875e-05   3.46875e-15   6.71296e-14   3.822e-06   1.811e-07
       61.9385   3.17153e-13   3.15903e-13     0.0139   1.735e-05   3.90208e-15   3.2287e-14   2.761e-06   1.218e-07
       63.6135   4.85972e-13   4.84097e-13     0.01159   1.076e-05   4.21944e-15   1.50833e-14   1.966e-06   8.023e-08
       65.3368   5.34792e-13   5.32708e-13    0.009691   6.558e-06   5.90278e-15   9.03241e-15   1.485e-06   5.498e-08
       67.1015   5.59514e-13   5.57361e-13    0.008279   4.149e-06   1.09722e-14   7.63889e-15   1.161e-06   4.647e-08
       68.9182   4.93472e-13   4.91528e-13    0.007036   2.894e-06   1.99306e-14   5.86111e-15   9.154e-07   3.952e-08
       70.7793   4.50694e-13   4.48958e-13    0.005906   2.017e-06   3.60556e-14   4.11481e-15   8.361e-07   3.254e-08
       72.6969   3.69444e-13   3.67986e-13    0.004944   1.429e-06   6.18056e-14   3.14398e-15   7.612e-07   2.621e-08
       74.6627   2.47917e-13   2.46944e-13    0.004021   1.055e-06   1.08403e-13   3.15463e-15   6.755e-07   2.091e-08
       76.6809   1.5625e-13   1.55694e-13    0.003141   7.625e-07   2.00556e-13   3.26759e-15   6.589e-07   1.812e-08
       78.7561   9.86111e-14   9.82639e-14    0.002462   5.831e-07   3.60278e-13   3.50556e-15   6.438e-07   1.485e-08
       80.8834   6.08889e-14   6.06528e-14    0.001257   2.837e-07   6.19653e-13   3.26667e-15   4.088e-07   7.939e-09
       83.0731   3.62708e-14   3.61319e-14   0.0001319   2.175e-08   1.04097e-12   2.47824e-15   5.798e-08   8.975e-10
       85.32   2.14028e-14   2.13194e-14   2.33e-06   2.107e-10   1.90139e-12   2.12361e-15   1.897e-09   1.748e-11
       87.6299   1.34028e-14   1.33472e-14   3.272e-07   2.463e-11   3.37361e-12   1.83657e-15   4.433e-10   2.482e-12
       89.9964   8.42361e-15   8.38889e-15   1.099e-07   8.142e-12   5.96667e-12   2.05231e-15   2.285e-10   8.269e-13
       92.4322   5.22153e-15   5.20139e-15   4.03e-08   2.957e-12   1.02986e-11   2.7375e-15   1.202e-10   3.007e-13
       94.9307   3.31042e-15   3.29792e-15   1.828e-08   1.439e-12   1.69444e-11   4.25602e-15   7.22e-11   1.269e-13
       97.499   2.02153e-15   2.01319e-15   8.242e-09   6.981e-13   2.80347e-11   7.02778e-15   4.265e-11   5.348e-14
       100.137   1.18403e-15   1.17986e-15   4.003e-09   3.719e-13   4.64028e-11   1.30463e-14   2.717e-11   2.453e-14
       102.846   6.70208e-16   6.67639e-16   2.095e-09   2.158e-13   7.92361e-11   2.59352e-14   1.864e-11   1.228e-14
       105.623   3.97431e-16   3.95903e-16   1.135e-09   1.29e-13   1.45833e-10   6.08333e-14   1.303e-11   6.429e-15
       108.479   2.27986e-16   2.27083e-16   5.892e-10   7.315e-14   2.62569e-10   1.27083e-13   8.655e-12   3.258e-15
       111.414   1.24097e-16   1.23611e-16   2.889e-10   4.045e-14   3.62639e-10   1.81343e-13   5.438e-12   1.577e-15
       114.427   5.40972e-17   5.38889e-17   1.027e-10   1.574e-14   4.32639e-10   1.33889e-13   2.568e-12   5.618e-16
       117.529   2.12222e-17   2.11389e-17   3.25e-11   5.256e-15   5.025e-10   9.14352e-14   1.086e-12   1.82e-16
       120.711   8.27778e-18   8.24306e-18   9.915e-12   1.653e-15   6.04722e-10   6.28241e-14   4.404e-13   5.742e-17
       123.97   2.98403e-18   2.97222e-18   2.699e-12   4.532e-16   6.95139e-10   4.02917e-14   1.584e-13   1.63e-17